Folder: Projects/FoPra/Li-Ion-Batterie/Cleaned Data

Note: README.md
# Projects
All kinds of small to medium projects

File: cleaned_cycle_data.csv
Cycle number,Charge Capacity (Ah),Discharge Capacity (Ah),C-rate,Specific Charge Capacity (mAh/g),Specific Discharge Capacity (mAh/g),Coulombic Efficiency (%),Electrode Type
1,0.0014165,0.001558,SEI,401.901,442.049,109.989,Calendered
2,0.0014185,0.0014354,SEI,402.468,407.263,101.191,Calendered
4,0.0014107,0.0014162,Stress Prep,400.255,401.816,100.39,Calendered
5,0.0014096,0.0014145,Stress Prep,399.943,401.334,100.348,Calendered
6,0.0014103,0.0014147,Stress Prep,400.142,401.39,100.312,Calendered
8,0.0013792,0.0013819,C/2,391.318,392.084,100.196,Calendered
9,0.0013819,0.0013843,C/2,392.084,392.765,100.174,Calendered
10,0.001383,0.0013855,C/2,392.396,393.105,100.181,Calendered
12,0.0013226,0.0013245,C,374.691,375.174,100.129,Calendered
13,0.0013206,0.0013223,C,374.691,375.174,100.129,Calendered
14,0.0013222,0.0013239,C,375.145,375.628,100.129,Calendered
16,0.0011496,0.0011507,2C,326.174,326.486,100.096,Calendered
17,0.0011635,0.0011648,2C,330.118,330.487,100.112,Calendered
18,0.0011868,0.0011881,2C,336.729,337.097,100.11,Calendered
20,0.0008822,0.0008829,4C,250.305,250.504,100.079,Calendered
21,0.000809,0.000809,4C,229.536,229.536,100.0,Calendered
22,0.000775,0.0007753,4C,219.889,219.974,100.039,Calendered
24,0.0013829,0.001385,C/2,392.368,392.964,100.152,Calendered
25,0.0013841,0.0013862,C/2,392.708,393.304,100.152,Calendered
26,0.0013867,0.0013889,C/2,393.446,394.07,100.159,Calendered
27,0.0013827,0.0013848,C/2,392.311,392.907,100.152,Calendered
1,0.0007356,0.0013074,SEI,274.58,488.018,177.732,Uncalendered
2,0.000744,0.0007878,SEI,277.716,294.065,105.887,Uncalendered
4,0.0007977,0.0008163,Stress Prep,297.76,304.703,102.332,Uncalendered
5,0.0007931,0.000811,Stress Prep,296.043,302.725,102.257,Uncalendered
6,0.0007895,0.0008037,Stress Prep,294.7,300,101.799,Uncalendered
8,0.0007549,0.0007631,C/2,281.784,284.845,101.086,Uncalendered
9,0.000752,0.000759,C/2,280.702,283.315,100.931,Uncalendered
10,0.0007531,0.0007597,C/2,281.112,283.576,100.876,Uncalendered
12,0.000693,0.0006981,C,258.679,260.582,100.736,Uncalendered
13,0.000688,0.0006925,C,256.812,258.492,100.654,Uncalendered
14,0.0006836,0.0006877,C,255.17,256.7,100.6,Uncalendered
16,0.0006,0.0006029,2C,223.964,225.047,100.483,Uncalendered
17,0.0005959,0.0005988,2C,222.434,223.516,100.487,Uncalendered
18,0.0005928,0.0005954,2C,221.277,222.247,100.439,Uncalendered
20,0.0004103,0.0004109,4C,153.154,153.378,100.146,Uncalendered
21,0.0003904,0.0003906,4C,145.726,145.801,100.051,Uncalendered
22,0.0003807,0.0003811,4C,142.105,142.255,100.105,Uncalendered
24,0.0007184,0.0007225,C/2,268.16,269.69,100.571,Uncalendered
25,0.0007204,0.0007245,C/2,268.906,270.437,100.569,Uncalendered
26,0.0007168,0.000721,C/2,267.563,269.13,100.586,Uncalendered
27,0.0007153,0.0007195,C/2,267.003,268.57,100.587,Uncalendered