Folder: Projects/FoPra/Li-Ion-Batterie/Data Cleaning

Note: README.md
# Projects
All kinds of small to medium projects

File: calendered_rawdata.csv
Record number,status,Jump,Cycle,Steps,Current(A),Capacity(Ah),Voltage(V),Relative Time(h:min:s.ms),Real Time(h:min:s.ms)
1,Rest,1,1,1,0.00000000,0.00000000,2.8112,0:00:00.000,2021-07-22 15:08:20
186,CCCV DChg,2,1,2,-0.00014973,0.00022587,0.1711,1:30:30.000,2021-07-22 16:40:20
371,CCCV DChg,2,1,2,-0.00014980,0.00045671,0.0998,3:03:00.000,2021-07-22 18:12:50
556,CCCV DChg,2,1,2,-0.00014967,0.00068755,0.0905,4:35:30.000,2021-07-22 19:45:20
741,CCCV DChg,2,1,2,-0.00014967,0.00091829,0.0703,6:08:00.000,2021-07-22 21:17:50
926,CCCV DChg,2,1,2,-0.00014973,0.00114909,0.0635,7:40:30.000,2021-07-22 22:50:20
1111,CCCV DChg,2,1,2,-0.00014973,0.00137990,0.0530,9:13:00.000,2021-07-23 00:22:50
1296,CCCV DChg,2,1,2,-0.00004582,0.00152875,0.0499,10:45:30.000,2021-07-23 01:55:20
1481,CCCV Chg,4,1,4,0.00014980,0.00006741,0.0995,0:27:00.000,2021-07-23 03:26:41
1666,CCCV Chg,4,1,4,0.00014980,0.00029835,0.1023,1:59:30.000,2021-07-23 04:59:11
1851,CCCV Chg,4,1,4,0.00014980,0.00052928,0.1190,3:32:00.000,2021-07-23 06:31:41
2036,CCCV Chg,4,1,4,0.00014980,0.00076020,0.1379,5:04:30.000,2021-07-23 08:04:11
2221,CCCV Chg,4,1,4,0.00014980,0.00099114,0.1491,6:37:00.000,2021-07-23 09:36:41
2406,CCCV Chg,4,1,4,0.00014980,0.00122209,0.2160,8:09:30.000,2021-07-23 11:09:11
2591,CCCV DChg,7,2,6,-0.00014980,0.00001748,0.6107,0:07:00.000,2021-07-23 12:40:31
2776,CCCV DChg,7,2,6,-0.00014967,0.00024829,0.1574,1:39:30.000,2021-07-23 14:13:01
2961,CCCV DChg,7,2,6,-0.00014967,0.00047905,0.1134,3:12:00.000,2021-07-23 15:45:31
3146,CCCV DChg,7,2,6,-0.00014967,0.00070979,0.1050,4:44:30.000,2021-07-23 17:18:01
3331,CCCV DChg,7,2,6,-0.00014967,0.00094054,0.0775,6:17:00.000,2021-07-23 18:50:31
3516,CCCV DChg,7,2,6,-0.00014967,0.00117131,0.0725,7:49:30.000,2021-07-23 20:23:01
3701,CCCV DChg,7,2,6,-0.00008581,0.00139092,0.0499,9:22:00.000,2021-07-23 21:55:31
3886,CCCV Chg,9,2,8,0.00014973,0.00006241,0.0954,0:25:00.000,2021-07-23 23:26:52
4071,CCCV Chg,9,2,8,0.00014980,0.00029328,0.1013,1:57:30.000,2021-07-24 00:59:22
4256,CCCV Chg,9,2,8,0.00014980,0.00052417,0.1181,3:30:00.000,2021-07-24 02:31:52
4441,CCCV Chg,9,2,8,0.00014980,0.00075513,0.1370,5:02:30.000,2021-07-24 04:04:22
4626,CCCV Chg,9,2,8,0.00014980,0.00098608,0.1478,6:35:00.000,2021-07-24 05:36:52
4811,CCCV Chg,9,2,8,0.00014980,0.00121702,0.2105,8:07:30.000,2021-07-24 07:09:22
4996,CCCV DChg,12,3,10,-0.00014980,0.00000998,0.7254,0:04:00.000,2021-07-24 08:40:28
5181,CCCV DChg,12,3,10,-0.00014973,0.00024082,0.1612,1:36:30.000,2021-07-24 10:12:58
5366,CCCV DChg,12,3,10,-0.00014967,0.00047164,0.1140,3:09:00.000,2021-07-24 11:45:28
5551,CCCV DChg,12,3,10,-0.00014967,0.00070241,0.1057,4:41:30.000,2021-07-24 13:17:58
5736,CCCV DChg,12,3,10,-0.00014967,0.00093316,0.0778,6:14:00.000,2021-07-24 14:50:28
5921,CCCV DChg,12,3,10,-0.00014967,0.00116392,0.0731,7:46:30.000,2021-07-24 16:22:58
6106,CCCV DChg,12,3,10,-0.00008909,0.00138557,0.0499,9:19:00.000,2021-07-24 17:55:28
6291,CCCV Chg,14,3,12,0.00014980,0.00006616,0.0948,0:26:30.000,2021-07-24 19:26:47
6476,CCCV Chg,14,3,12,0.00014973,0.00029705,0.1016,1:59:00.000,2021-07-24 20:59:17
6661,CCCV Chg,14,3,12,0.00014980,0.00052799,0.1190,3:31:30.000,2021-07-24 22:31:47
6846,CCCV Chg,14,3,12,0.00014973,0.00075894,0.1376,5:04:00.000,2021-07-25 00:04:18
7031,CCCV Chg,14,3,12,0.00014980,0.00098988,0.1478,6:36:30.000,2021-07-25 01:36:48
7216,CCCV Chg,14,3,12,0.00014980,0.00122083,0.2123,8:09:00.000,2021-07-25 03:09:18
7401,CCCV DChg,17,3,14,-0.00037475,0.00003435,0.4495,0:05:30.000,2021-07-25 04:40:24
7586,CCCV DChg,17,3,14,-0.00037469,0.00061205,0.1019,1:38:00.000,2021-07-25 06:12:54
7771,CCCV DChg,17,3,14,-0.00037462,0.00118970,0.0499,3:10:30.000,2021-07-25 07:45:24
7956,CCCV DChg,17,3,14,-0.00004985,0.00140329,0.0502,4:43:00.000,2021-07-25 09:17:54
8141,CCCV Chg,19,3,16,0.00037487,0.00043108,0.1174,1:09:00.000,2021-07-25 10:49:10
8326,CCCV Chg,19,3,16,0.00037487,0.00100900,0.1578,2:41:30.000,2021-07-25 12:21:40
8511,CCCV DChg,22,4,18,-0.00037475,0.00014364,0.1943,0:23:00.000,2021-07-25 13:52:41
8696,CCCV DChg,22,4,18,-0.00037469,0.00072129,0.0976,1:55:30.000,2021-07-25 15:25:11
8881,CCCV DChg,22,4,18,-0.00022457,0.00128496,0.0499,3:28:00.000,2021-07-25 16:57:41
9066,CCCV Chg,24,4,20,0.00037487,0.00008432,0.1057,0:13:30.000,2021-07-25 18:28:42
9251,CCCV Chg,24,4,20,0.00037475,0.00066223,0.1398,1:46:00.000,2021-07-25 20:01:12
9436,CCCV Chg,24,4,20,0.00037493,0.00124005,0.2266,3:18:30.000,2021-07-25 21:33:42
9621,CCCV DChg,27,5,22,-0.00037469,0.00037474,0.1134,1:00:00.000,2021-07-25 23:04:49
9806,CCCV DChg,27,5,22,-0.00037469,0.00095241,0.0706,2:32:30.000,2021-07-26 00:37:19
9991,CCCV DChg,27,5,22,-0.00009244,0.00137593,0.0499,4:05:00.000,2021-07-26 02:09:49
10176,CCCV Chg,29,5,24,0.00037487,0.00030612,0.1097,0:49:00.000,2021-07-26 03:41:15
10361,CCCV Chg,29,5,24,0.00037487,0.00088397,0.1475,2:21:30.000,2021-07-26 05:13:45
10546,CCCV DChg,32,6,26,-0.00037475,0.00002186,0.5459,0:03:30.000,2021-07-26 06:45:08
10731,CCCV DChg,32,6,26,-0.00037469,0.00059953,0.1054,1:36:00.000,2021-07-26 08:17:38
10916,CCCV DChg,32,6,26,-0.00037475,0.00117719,0.0616,3:08:30.000,2021-07-26 09:50:07
11101,CCCV DChg,32,6,26,-0.00003143,0.00141388,0.0499,4:41:00.000,2021-07-26 11:22:37
11286,CCCV Chg,34,6,28,0.00037487,0.00054972,0.1329,1:28:00.000,2021-07-26 12:53:38
11471,CCCV Chg,34,6,28,0.00037475,0.00112760,0.1822,3:00:30.000,2021-07-26 14:26:08
11656,CCCV DChg,37,7,30,-0.00037475,0.00026232,0.1450,0:42:00.000,2021-07-26 15:57:09
11841,CCCV DChg,37,7,30,-0.00037469,0.00084005,0.0731,2:14:30.000,2021-07-26 17:29:39
12026,CCCV DChg,37,7,30,-0.00013950,0.00135410,0.0502,3:47:00.000,2021-07-26 19:02:09
12211,CCCV Chg,39,7,32,0.00037487,0.00025301,0.1078,0:40:30.000,2021-07-26 20:33:28
12396,CCCV Chg,39,7,32,0.00037487,0.00083086,0.1457,2:13:00.000,2021-07-26 22:05:58
12581,CCCV Chg,39,7,32,0.00014930,0.00140821,1.3008,3:45:30.000,2021-07-26 23:38:28
12766,CCCV DChg,42,7,34,-0.00070200,0.00109427,0.0499,1:27:30.000,2021-07-27 01:09:54
12951,CCCV Chg,44,7,36,0.00075086,0.00018146,0.1215,0:14:30.000,2021-07-27 02:41:17
13136,CCCV Chg,44,7,36,0.00075086,0.00133904,0.4504,1:47:00.000,2021-07-27 04:13:47
13321,CCCV DChg,47,8,38,-0.00072991,0.00107606,0.0499,1:26:00.000,2021-07-27 05:45:17
13506,CCCV Chg,49,8,40,0.00075086,0.00010011,0.1236,0:08:00.000,2021-07-27 07:16:18
13691,CCCV Chg,49,8,40,0.00075086,0.00125769,0.2442,1:40:30.000,2021-07-27 08:48:48
13876,CCCV DChg,52,9,42,-0.00075086,0.00099484,0.0558,1:19:30.000,2021-07-27 10:20:10
14061,CCCV Chg,54,9,44,0.00075093,0.00004380,0.1264,0:03:30.000,2021-07-27 11:51:11
14246,CCCV Chg,54,9,44,0.00075099,0.00120147,0.2343,1:36:00.000,2021-07-27 13:23:41
14431,CCCV DChg,57,10,46,-0.00075074,0.00093226,0.0585,1:14:30.000,2021-07-27 14:54:45
14616,Rest,58,10,47,0.00000000,0.00000000,0.0598,0:01:30.000,2021-07-27 16:26:19
14801,CCCV Chg,59,10,48,0.00075086,0.00115132,0.2117,1:32:00.000,2021-07-27 17:58:19
14986,CCCV DChg,62,11,50,-0.00075080,0.00088220,0.0610,1:10:30.000,2021-07-27 19:29:30
15171,Rest,63,11,51,0.00000000,0.00000000,0.0585,0:00:30.000,2021-07-27 21:01:14
15356,CCCV Chg,64,11,52,0.00075086,0.00113882,0.2070,1:31:00.000,2021-07-27 22:33:14
15541,CCCV DChg,67,11,54,-0.00031888,0.00120383,0.0502,1:06:00.000,2021-07-28 00:04:27
15726,CCCV Chg,69,11,56,0.00150204,0.00127706,0.4126,0:51:00.000,2021-07-28 01:35:56
15911,CCCV DChg,72,12,58,-0.00021937,0.00125202,0.0499,1:24:00.000,2021-07-28 03:07:16
16096,CCCV DChg,77,13,62,-0.00150173,0.00007509,0.2278,0:03:00.000,2021-07-28 04:37:01
16281,CCCV DChg,77,13,62,-0.00018594,0.00128708,0.0502,1:35:30.000,2021-07-28 06:09:31
16466,CCCV DChg,82,14,66,-0.00150142,0.00035037,0.0846,0:14:00.000,2021-07-28 07:39:11
16651,CCCV DChg,82,14,66,-0.00015507,0.00131907,0.0499,1:46:30.000,2021-07-28 09:11:41
16836,CCCV DChg,87,15,70,-0.00150111,0.00062573,0.0647,0:25:00.000,2021-07-28 10:41:43
17021,CCCV Chg,89,15,72,0.00150235,0.00011267,0.1506,0:04:30.000,2021-07-28 12:13:07
17206,CCCV DChg,92,15,74,-0.00079402,0.00096569,0.0502,0:32:30.000,2021-07-28 13:44:27
17391,CCCV DChg,97,16,78,-0.00116412,0.00077567,0.0499,0:20:00.000,2021-07-28 15:14:54
17576,CCCV DChg,102,17,82,-0.00293371,0.00039972,0.0502,0:08:00.000,2021-07-28 16:44:44
17761,Rest,106,18,85,0.00000000,0.00000000,1.0574,0:03:00.000,2021-07-28 18:15:27
17946,CCCV Chg,109,18,88,0.00299882,0.00049985,0.2117,0:10:00.000,2021-07-28 19:45:58
18131,Rest,113,19,91,0.00000000,0.00000000,0.0815,0:06:00.000,2021-07-28 21:16:41
18316,CCCV Chg,119,19,96,0.0059982,0.0008997,0.4721,0:09:00.000,2021-07-28 22:46:30
18501,CCCV DChg,127,21,102,-0.00063572,0.00079814,0.0499,0:22:00.000,2021-07-29 00:15:00
18686,CCCV DChg,137,23,110,-0.00217044,0.00048882,0.0499,0:08:00.000,2021-07-29 01:42:39
18871,CCCV DChg,142,23,114,-0.00075080,0.00060064,0.0821,0:48:00.000,2021-07-29 03:12:43
19056,CCCV DChg,142,23,114,-0.00022612,0.00123913,0.0499,2:20:30.000,2021-07-29 04:45:13
19241,CCCV Chg,144,23,116,0.00075086,0.00029409,0.1336,0:23:30.000,2021-07-29 06:16:25
19426,Rest,146,24,117,0.00000000,0.00000000,1.1058,0:04:30.000,2021-07-29 07:48:02
19611,CCCV DChg,147,24,118,-0.00061960,0.00107609,0.0502,1:26:30.000,2021-07-29 09:20:01
19796,CCCV Chg,149,24,120,0.00075080,0.00006883,0.1209,0:05:30.000,2021-07-29 10:51:27
19981,CCCV Chg,149,24,120,0.00075086,0.00122641,0.2396,1:38:00.000,2021-07-29 12:23:57
20166,CCCV DChg,152,25,122,-0.00075080,0.00085091,0.0607,1:08:00.000,2021-07-29 13:55:03
20351,Rest,153,25,123,0.00000000,0.00000000,0.0604,0:03:30.000,2021-07-29 15:26:57
20536,CCCV Chg,154,25,124,0.00075086,0.00107004,0.1919,1:25:30.000,2021-07-29 16:58:58
20721,CCCV DChg,157,26,126,-0.00075080,0.00069449,0.0812,0:55:30.000,2021-07-29 18:30:10
20906,CCCV DChg,157,26,126,-0.00009424,0.00137974,0.0502,2:28:00.000,2021-07-29 20:02:40
21091,CCCV Chg,159,26,128,0.00075086,0.00093236,0.1695,1:14:30.000,2021-07-29 21:33:42
21276,CCCV DChg,162,27,130,-0.00075086,0.00055688,0.0930,0:44:30.000,2021-07-29 23:05:06
21461,CCCV DChg,162,27,130,-0.00013777,0.00134992,0.0502,2:17:00.000,2021-07-30 00:37:37
21646,CCCV Chg,164,27,132,0.00075086,0.00076338,0.1602,1:01:00.000,2021-07-30 02:08:44
21747,CCCV Chg,164,27,132,0.00007490,0.00138267,1.3008,1:51:04.900,2021-07-30 02:58:49