Folder: Projects/Li-Ion-Batterie/Data Cleaning

Note: README.md
# Projects
All kinds of small to medium projects

File: uncalendered_rawdata.csv
Record number,status,Jump,Cycle,Steps,Current(A),Capacity(Ah),Voltage(V),Relative Time(h:min:s.ms),Real Time(h:min:s.ms)
1,Rest,1,1,1,0.00000000,0.00000000,2.7033,0:00:00.000,2021-10-28 14:14:47
188,CCCV DChg,2,1,2,-0.00008816,0.00013440,0.5980,1:31:30.000,2021-10-28 15:47:47
375,CCCV DChg,2,1,2,-0.00008810,0.00027172,0.3931,3:05:00.000,2021-10-28 17:21:17
562,CCCV DChg,2,1,2,-0.00008810,0.00040902,0.1987,4:38:30.000,2021-10-28 18:54:47
749,CCCV DChg,2,1,2,-0.00008810,0.00054630,0.1475,6:12:00.000,2021-10-28 20:28:17
936,CCCV DChg,2,1,2,-0.00008810,0.00068359,0.1069,7:45:30.000,2021-10-28 22:01:47
1123,CCCV DChg,2,1,2,-0.00008804,0.00082086,0.1023,9:19:00.000,2021-10-28 23:35:17
1310,CCCV DChg,2,1,2,-0.00008804,0.00095810,0.0765,10:52:30.000,2021-10-29 01:08:47
1497,CCCV DChg,2,1,2,-0.00008804,0.00109533,0.0666,12:26:00.000,2021-10-29 02:42:17
1684,CCCV DChg,2,1,2,-0.00008804,0.00123255,0.0579,13:59:30.000,2021-10-29 04:15:47
1871,CCCV Chg,4,1,4,0.00008810,0.00005580,0.1038,0:38:00.000,2021-10-29 05:48:05
2058,CCCV Chg,4,1,4,0.00008810,0.00019307,0.1174,2:11:30.000,2021-10-29 07:21:35
2245,CCCV Chg,4,1,4,0.00008804,0.00033034,0.1413,3:45:00.000,2021-10-29 08:55:05
2432,CCCV Chg,4,1,4,0.00008804,0.00046761,0.1534,5:18:30.000,2021-10-29 10:28:35
2619,CCCV Chg,4,1,4,0.00008810,0.00060490,0.2132,6:52:00.000,2021-10-29 12:02:05
2806,CCCV DChg,7,2,6,-0.00008810,0.00000220,0.8522,0:01:30.000,2021-10-29 13:34:11
2993,CCCV DChg,7,2,6,-0.00008810,0.00013949,0.1646,1:35:00.000,2021-10-29 15:07:41
3180,CCCV DChg,7,2,6,-0.00008810,0.00027678,0.1112,3:08:30.000,2021-10-29 16:41:11
3367,CCCV DChg,7,2,6,-0.00008804,0.00041406,0.1010,4:42:00.000,2021-10-29 18:14:42
3554,CCCV DChg,7,2,6,-0.00008804,0.00055129,0.0716,6:15:30.000,2021-10-29 19:48:12
3741,CCCV DChg,7,2,6,-0.00008804,0.00068852,0.0635,7:49:00.000,2021-10-29 21:21:42
3928,CCCV Chg,9,2,8,0.00008810,0.00003230,0.0961,0:22:00.000,2021-10-29 22:54:07
4115,CCCV Chg,9,2,8,0.00008810,0.00016959,0.1094,1:55:30.000,2021-10-30 00:27:36
4302,CCCV Chg,9,2,8,0.00008810,0.00030688,0.1354,3:29:00.000,2021-10-30 02:01:06
4489,CCCV Chg,9,2,8,0.00008810,0.00044416,0.1475,5:02:30.000,2021-10-30 03:34:36
4676,CCCV Chg,9,2,8,0.00008810,0.00058144,0.1903,6:36:00.000,2021-10-30 05:08:06
4863,CCCV Chg,9,2,8,0.00008810,0.00071871,0.6665,8:09:30.000,2021-10-30 06:41:36
5050,CCCV DChg,12,3,10,-0.00008804,0.00010791,0.1878,1:13:30.000,2021-10-30 08:13:56
5237,CCCV DChg,12,3,10,-0.00008804,0.00024516,0.1119,2:47:00.000,2021-10-30 09:47:26
5424,CCCV DChg,12,3,10,-0.00008804,0.00038239,0.1044,4:20:30.000,2021-10-30 11:20:56
5611,CCCV DChg,12,3,10,-0.00008804,0.00051961,0.0728,5:54:00.000,2021-10-30 12:54:26
5798,CCCV DChg,12,3,10,-0.00008810,0.00065682,0.0660,7:27:30.000,2021-10-30 14:27:56
5985,CCCV Chg,14,3,12,0.00008810,0.00001762,0.0902,0:12:00.000,2021-10-30 16:00:04
6172,CCCV Chg,14,3,12,0.00008810,0.00015491,0.1072,1:45:30.000,2021-10-30 17:33:34
6359,CCCV Chg,14,3,12,0.00008810,0.00029219,0.1326,3:19:00.000,2021-10-30 19:07:04
6546,CCCV Chg,14,3,12,0.00008810,0.00042948,0.1450,4:52:30.000,2021-10-30 20:40:34
6733,CCCV Chg,14,3,12,0.00008810,0.00056676,0.1810,6:26:00.000,2021-10-30 22:14:04
6920,CCCV Chg,14,3,12,0.00008804,0.00070404,0.4653,7:59:30.000,2021-10-30 23:47:34
7107,CCCV DChg,17,3,14,-0.00022067,0.00023354,0.1029,1:03:30.000,2021-10-31 01:19:41
7294,CCCV DChg,17,3,14,-0.00022061,0.00057741,0.0533,2:37:00.000,2021-10-31 02:53:11
7481,CCCV DChg,17,3,14,-0.00005691,0.00076764,0.0499,4:10:30.000,2021-10-31 04:26:41
7668,CCCV Chg,19,3,16,0.00022073,0.00004782,0.1085,0:13:00.000,2021-10-31 05:58:59
7855,CCCV Chg,19,3,16,0.00022073,0.00039180,0.1528,1:46:30.000,2021-10-31 07:32:29
8042,CCCV Chg,19,3,16,0.00022073,0.00073577,0.3580,3:20:00.000,2021-10-31 09:05:59
8229,CCCV DChg,22,4,18,-0.00022067,0.00021515,0.1081,0:58:30.000,2021-10-31 09:38:04
8416,CCCV DChg,22,4,18,-0.00022067,0.00055903,0.0595,2:32:00.000,2021-10-31 11:11:34
8603,CCCV DChg,22,4,18,-0.00005722,0.00077773,0.0499,4:05:30.000,2021-10-31 12:45:04
8790,CCCV Chg,24,4,20,0.00022079,0.00009013,0.1085,0:24:30.000,2021-10-31 14:17:05
8977,CCCV Chg,24,4,20,0.00022079,0.00043414,0.1515,1:58:00.000,2021-10-31 15:50:35
9164,CCCV Chg,24,4,20,0.00022079,0.00077816,1.1641,3:31:30.000,2021-10-31 17:24:05
9351,CCCV DChg,27,5,22,-0.00022067,0.00025930,0.1038,1:10:30.000,2021-10-31 18:56:17
9538,CCCV DChg,27,5,22,-0.00022067,0.00060318,0.0564,2:44:00.000,2021-10-31 20:29:47
9725,CCCV DChg,27,5,22,-0.00004414,0.00078780,0.0499,4:17:30.000,2021-10-31 22:03:17
9912,CCCV Chg,29,5,24,0.00022073,0.00016555,0.1171,0:45:00.000,2021-10-31 23:35:37
10099,CCCV Chg,29,5,24,0.00022073,0.00050952,0.1658,2:18:30.000,2021-11-01 01:09:08
10286,Rest,31,6,25,0.00000000,0.00000000,1.2087,0:01:30.000,2021-11-01 02:41:40
10473,CCCV DChg,32,6,26,-0.00022067,0.00034204,0.0970,1:33:00.000,2021-11-01 04:14:40
10660,CCCV DChg,32,6,26,-0.00015842,0.00067904,0.0499,3:06:30.000,2021-11-01 05:48:10
10847,CCCV DChg,32,6,26,-0.00002982,0.00079410,0.0499,4:40:00.000,2021-11-01 07:21:40
11034,CCCV Chg,34,6,28,0.00022073,0.00024648,0.1336,1:07:00.000,2021-11-01 08:53:44
11221,CCCV Chg,34,6,28,0.00022073,0.00059045,0.1869,2:40:30.000,2021-11-01 10:27:14
11408,CCCV DChg,37,7,30,-0.00022067,0.00008459,0.1888,0:23:00.000,2021-11-01 11:59:41
11595,CCCV DChg,37,7,30,-0.00022067,0.00042847,0.0750,1:56:30.000,2021-11-01 13:33:11
11782,CCCV DChg,37,7,30,-0.00009716,0.00072583,0.0499,3:30:00.000,2021-11-01 15:06:41
11969,CCCV Chg,39,7,32,0.00022073,0.00000368,0.0815,0:01:00.000,2021-11-01 16:39:09
12156,CCCV Chg,39,7,32,0.00022073,0.00034765,0.1478,1:34:30.000,2021-11-01 18:12:39
12343,CCCV Chg,39,7,32,0.00022073,0.00069162,0.2430,3:08:00.000,2021-11-01 19:46:09
12530,CCCV DChg,42,7,34,-0.00044159,0.00037535,0.0685,0:51:00.000,2021-11-01 21:18:10
12717,CCCV DChg,42,7,34,-0.00008643,0.00072953,0.0499,2:24:30.000,2021-11-01 22:51:40
12904,CCCV Chg,44,7,36,0.00044177,0.00036811,0.1705,0:50:00.000,2021-11-02 00:24:06
13091,CCCV DChg,47,8,38,-0.00044159,0.00023552,0.0886,0:32:00.000,2021-11-02 01:56:21
13278,CCCV DChg,47,8,38,-0.00011154,0.00069628,0.0499,2:05:30.000,2021-11-02 03:29:51
13465,CCCV Chg,49,8,40,0.00044171,0.00026503,0.1590,0:36:00.000,2021-11-02 05:02:15
13652,CCCV DChg,52,9,42,-0.00044159,0.00013616,0.1283,0:18:30.000,2021-11-02 06:34:40
13839,CCCV DChg,52,9,42,-0.00013926,0.00066436,0.0499,1:52:00.000,2021-11-02 08:08:10
14026,CCCV Chg,54,9,44,0.00044177,0.00016933,0.1416,0:23:00.000,2021-11-02 09:40:39
14213,CCCV DChg,57,10,46,-0.00044159,0.00004048,0.2771,0:05:30.000,2021-11-02 11:12:47
14400,CCCV DChg,57,10,46,-0.00018210,0.00063461,0.0499,1:39:00.000,2021-11-02 12:46:17
14587,CCCV Chg,59,10,48,0.00044177,0.00009939,0.1274,0:13:30.000,2021-11-02 14:18:43
14774,CCCV Chg,59,10,48,0.00005164,0.00075196,1.3008,1:47:00.000,2021-11-02 15:52:13
14961,CCCV DChg,62,11,50,-0.00022104,0.00060053,0.0499,1:29:30.000,2021-11-02 17:24:42
15148,CCCV Chg,64,11,52,0.00044171,0.00002577,0.1162,0:03:30.000,2021-11-02 18:57:01
15335,CCCV Chg,64,11,52,0.00044171,0.00071414,0.5828,1:37:00.000,2021-11-02 20:30:31
15522,CCCV DChg,67,11,54,-0.00016629,0.00062945,0.0499,1:16:30.000,2021-11-02 22:02:48
15709,CCCV Chg,69,11,56,0.00010559,0.00069619,1.3008,0:49:30.000,2021-11-02 23:35:13
15896,CCCV DChg,72,12,58,-0.00014056,0.00064495,0.0499,1:26:30.000,2021-11-03 01:07:24
16083,CCCV DChg,77,13,62,-0.00088368,0.00004419,0.1950,0:03:00.000,2021-11-03 02:38:20
16270,CCCV DChg,77,13,62,-0.00012103,0.00065925,0.0499,1:36:30.000,2021-11-03 04:11:50
16457,CCCV DChg,82,14,66,-0.00088368,0.00017674,0.0697,0:12:00.000,2021-11-03 05:42:30
16644,CCCV DChg,82,14,66,-0.00010683,0.00066939,0.0499,1:45:30.000,2021-11-03 07:16:00
16831,CCCV DChg,87,15,70,-0.00075198,0.00029776,0.0499,0:20:30.000,2021-11-03 08:47:07
17018,CCCV DChg,87,15,70,-0.00009610,0.00068503,0.0499,1:54:00.000,2021-11-03 10:20:37
17205,CCCV DChg,92,15,74,-0.00052058,0.00038588,0.0499,0:22:30.000,2021-11-03 11:51:51
17392,CCCV DChg,97,16,78,-0.00169828,0.00001415,0.3137,0:00:30.000,2021-11-03 13:22:59
17579,CCCV Chg,99,16,80,0.00169890,0.00032565,0.2731,0:11:30.000,2021-11-03 14:55:14
17766,CCCV DChg,102,17,82,-0.00016995,0.00059878,0.0499,1:10:35.000,2021-11-03 16:27:09
17953,CCCV DChg,107,18,86,-0.00024293,0.00051896,0.0499,0:48:30.000,2021-11-03 17:58:21
18140,CCCV DChg,112,19,90,-0.00043297,0.00039528,0.0499,0:25:30.000,2021-11-03 19:29:10
18327,CCCV DChg,117,19,94,-0.00170324,0.00010591,0.0499,0:02:30.000,2021-11-03 20:59:58
18514,Rest,123,20,99,0.00000000,0.00000000,0.0886,0:05:30.000,2021-11-03 22:30:32
18701,CCCV DChg,132,22,106,-0.00069264,0.00025341,0.0499,0:12:00.000,2021-11-03 23:59:57
18888,Rest,141,23,113,0.00000000,0.00000000,0.8190,0:02:00.000,2021-11-04 01:29:21
19075,CCCV DChg,142,23,114,-0.00020120,0.00052009,0.0499,1:25:00.000,2021-11-04 03:02:21
19262,CCCV DChg,142,23,114,-0.00005468,0.00070298,0.0499,2:58:30.000,2021-11-04 04:35:51
19449,CCCV Chg,144,23,116,0.00044171,0.00050797,0.2086,1:09:00.000,2021-11-04 06:08:17
19636,CCCV DChg,147,24,118,-0.00044159,0.00033855,0.0582,0:46:00.000,2021-11-04 07:40:44
19823,CCCV DChg,147,24,118,-0.00009257,0.00067104,0.0499,2:19:30.000,2021-11-04 09:14:14
20010,CCCV Chg,149,24,120,0.00044171,0.00025766,0.1624,0:35:00.000,2021-11-04 10:46:17
20197,CCCV DChg,152,25,122,-0.00044159,0.00009200,0.1475,0:12:30.000,2021-11-04 12:18:45
20384,CCCV DChg,152,25,122,-0.00014942,0.00060798,0.0499,1:46:00.000,2021-11-04 13:52:15
20571,CCCV Chg,154,25,124,0.00044171,0.00002209,0.1162,0:03:00.000,2021-11-04 15:24:28
20758,CCCV Chg,154,25,124,0.00020703,0.00070836,1.3008,1:36:30.000,2021-11-04 16:57:58
20945,CCCV DChg,157,26,126,-0.00025006,0.00049922,0.0499,1:13:30.000,2021-11-04 18:30:08
21132,CCCV DChg,157,26,126,-0.00006008,0.00070432,0.0499,2:47:00.000,2021-11-04 20:03:38
21319,CCCV Chg,159,26,128,0.00044171,0.00046380,0.1959,1:03:00.000,2021-11-04 21:36:01
21506,CCCV DChg,162,27,130,-0.00044159,0.00029807,0.0669,0:40:30.000,2021-11-04 23:08:14
21693,CCCV DChg,162,27,130,-0.00010088,0.00066041,0.0499,2:14:00.000,2021-11-05 00:41:44
21880,CCCV Chg,164,27,132,0.00044171,0.00022822,0.1596,0:31:00.000,2021-11-05 02:14:06
22028,CCCV Chg,164,27,132,0.00004396,0.00071526,1.3005,1:44:41.100,2021-11-05 03:27:47